curCityName	curRun	trial_num	trial_time	shapePath	trialtype	resp_key	resp_time	acc	resp_time_list
City2_NS5_FR9	1	1	7.5	file:/Users/jdstokes/Desktop/Shapes/New_City2_NS5_FR8/MasksSZ3/New_City2_NS5_FR8_13.png	lure	nan	3.21905	0
City2_NS5_FR9	1	2	13	file:/Users/jdstokes/Desktop/Shapes/City2_NS5_FR9/MasksSZ3/City2_NS5_FR9_56.png	targ	nan	10.22203	1
City2_NS5_FR9	1	3	18.5	file:/Users/jdstokes/Desktop/Shapes/City2_NS5_FR9/MasksSZ3/City2_NS5_FR9_27.png	targ	nan	14.52499	1
City2_NS5_FR9	1	4	24	file:/Users/jdstokes/Desktop/Shapes/New_City2_NS5_FR8/MasksSZ3/New_City2_NS5_FR8_83.png	lure	nan	20.2602	1
City2_NS5_FR9	1	5	29.5	file:/Users/jdstokes/Desktop/Shapes/New_City2_NS5_FR8/MasksSZ3/New_City2_NS5_FR8_70.png	lure	nan	25.19593	0
City2_NS5_FR9	1	6	35	file:/Users/jdstokes/Desktop/Shapes/New_City2_NS5_FR8/MasksSZ3/New_City2_NS5_FR8_46.png	lure	nan	31.82873	0
City2_NS5_FR9	1	7	40.5	file:/Users/jdstokes/Desktop/Shapes/New_City2_NS5_FR8/MasksSZ3/New_City2_NS5_FR8_71.png	lure	nan	37.09674	1
City2_NS5_FR9	1	8	46	file:/Users/jdstokes/Desktop/Shapes/City2_NS5_FR9/MasksSZ3/City2_NS5_FR9_23.png	targ	nan	42.76532	1
City2_NS5_FR9	1	9	51.5	file:/Users/jdstokes/Desktop/Shapes/City2_NS5_FR9/MasksSZ3/City2_NS5_FR9_55.png	targ	nan	47.80005	1
City2_NS5_FR9	1	10	57	file:/Users/jdstokes/Desktop/Shapes/New_City2_NS5_FR8/MasksSZ3/New_City2_NS5_FR8_62.png	lure	nan	53.80231	1
City2_NS5_FR9	1	11	62.5	file:/Users/jdstokes/Desktop/Shapes/New_City2_NS5_FR8/MasksSZ3/New_City2_NS5_FR8_01.png	lure	nan	59.37167	1
City2_NS5_FR9	1	12	68	file:/Users/jdstokes/Desktop/Shapes/City2_NS5_FR9/MasksSZ3/City2_NS5_FR9_17.png	targ	nan	64.24181	1
City2_NS5_FR9	1	13	73.5	file:/Users/jdstokes/Desktop/Shapes/New_City2_NS5_FR8/MasksSZ3/New_City2_NS5_FR8_26.png	lure	nan	69.44815	0
City2_NS5_FR9	1	14	79	file:/Users/jdstokes/Desktop/Shapes/New_City2_NS5_FR8/MasksSZ3/New_City2_NS5_FR8_64.png	lure	nan	75.21385	0
City2_NS5_FR9	1	15	84.5	file:/Users/jdstokes/Desktop/Shapes/City2_NS5_FR9/MasksSZ3/City2_NS5_FR9_39.png	targ	nan	80.5104	1
City2_NS5_FR9	1	16	90	file:/Users/jdstokes/Desktop/Shapes/City2_NS5_FR9/MasksSZ3/City2_NS5_FR9_77.png	targ	nan	86.28096	1
City2_NS5_FR9	1	17	95.5	file:/Users/jdstokes/Desktop/Shapes/New_City2_NS5_FR8/MasksSZ3/New_City2_NS5_FR8_27.png	lure	nan	91.7162	1
City2_NS5_FR9	1	18	101	file:/Users/jdstokes/Desktop/Shapes/City2_NS5_FR9/MasksSZ3/City2_NS5_FR9_41.png	targ	nan	96.81777	1
City2_NS5_FR9	1	19	106.5	file:/Users/jdstokes/Desktop/Shapes/New_City2_NS5_FR8/MasksSZ3/New_City2_NS5_FR8_75.png	lure	nan	102.7865	1
