curRun	trial_num	trial_time	shapePath	trialtype	resp_key	resp_time	acc	resp_time_list
1	1	3	file:/Users/jdstokes/Desktop/Shapes/City9_NS5_FR9/morph_Sh5Res8_6/morph_shape_3.png	1	99	0	0
1	2	5	file:/Users/jdstokes/Desktop/Shapes/City9_NS5_FR9/morph_Sh5Res8_6/morph_shape_4.png	2	99	0	0
1	3	7	file:/Users/jdstokes/Desktop/Shapes/City9_NS5_FR9/morph_Sh5Res8_6/morph_shape_2.png	2	99	0	0
1	4	9	file:/Users/jdstokes/Desktop/Shapes/City9_NS5_FR9/morph_Sh5Res8_6/morph_shape_1.png	2	99	0	0
1	5	11	file:/Users/jdstokes/Desktop/Shapes/City9_NS5_FR9/morph_Sh5Res8_6/morph_shape_1.png	1	99	0	0
1	6	13	file:/Users/jdstokes/Desktop/Shapes/City9_NS5_FR9/morph_Sh5Res8_6/morph_shape_3.png	2	99	0	0
1	7	15	file:/Users/jdstokes/Desktop/Shapes/City9_NS5_FR9/morph_Sh5Res8_6/morph_shape_2.png	2	99	0	0
1	8	17	file:/Users/jdstokes/Desktop/Shapes/City9_NS5_FR9/morph_Sh5Res8_6/morph_shape_2.png	1	99	0	0
1	9	19	file:/Users/jdstokes/Desktop/Shapes/City9_NS5_FR9/morph_Sh5Res8_6/morph_shape_1.png	2	99	0	0
1	10	21	file:/Users/jdstokes/Desktop/Shapes/City9_NS5_FR9/morph_Sh5Res8_6/morph_shape_1.png	1	99	0	0
1	11	23	file:/Users/jdstokes/Desktop/Shapes/City9_NS5_FR9/morph_Sh5Res8_6/morph_shape_2.png	2	99	0	0
1	12	25	file:/Users/jdstokes/Desktop/Shapes/City9_NS5_FR9/morph_Sh5Res8_6/morph_shape_2.png	1	99	0	0
1	13	27	file:/Users/jdstokes/Desktop/Shapes/City9_NS5_FR9/morph_Sh5Res8_6/morph_shape_2.png	1	99	0	0
1	14	29	file:/Users/jdstokes/Desktop/Shapes/City9_NS5_FR9/morph_Sh5Res8_6/morph_shape_1.png	2	99	0	0
1	15	31	file:/Users/jdstokes/Desktop/Shapes/City9_NS5_FR9/morph_Sh5Res8_6/morph_shape_3.png	2	99	0	0
1	16	33	file:/Users/jdstokes/Desktop/Shapes/City9_NS5_FR9/morph_Sh5Res8_6/morph_shape_4.png	2	99	0	0
1	17	35	file:/Users/jdstokes/Desktop/Shapes/City9_NS5_FR9/morph_Sh5Res8_6/morph_shape_1.png	2	99	0	0
1	18	37	file:/Users/jdstokes/Desktop/Shapes/City9_NS5_FR9/morph_Sh5Res8_6/morph_shape_3.png	2	99	0	0
1	19	39	file:/Users/jdstokes/Desktop/Shapes/City9_NS5_FR9/morph_Sh5Res8_6/morph_shape_2.png	2	99	0	0
1	20	41	file:/Users/jdstokes/Desktop/Shapes/City9_NS5_FR9/morph_Sh5Res8_6/morph_shape_2.png	2	99	0	0
1	21	3	file:/Users/jdstokes/Desktop/Shapes/City9_NS5_FR9/morph_Sh5Res8_6/morph_shape_3.png	2	99	0	0
1	22	5	file:/Users/jdstokes/Desktop/Shapes/City9_NS5_FR9/morph_Sh5Res8_6/morph_shape_3.png	1	99	0	0
1	23	7	file:/Users/jdstokes/Desktop/Shapes/City9_NS5_FR9/morph_Sh5Res8_6/morph_5dot_3.png	1	99	0	0
1	24	9	file:/Users/jdstokes/Desktop/Shapes/City9_NS5_FR9/morph_Sh5Res8_6/morph_shape_2.png	2	99	0	0
1	25	11	file:/Users/jdstokes/Desktop/Shapes/City9_NS5_FR9/morph_Sh5Res8_6/morph_5dot_2.png	1	99	0	0
1	26	13	file:/Users/jdstokes/Desktop/Shapes/City9_NS5_FR9/morph_Sh5Res8_6/morph_5dot_4.png	2	99	0	0
1	27	15	file:/Users/jdstokes/Desktop/Shapes/City9_NS5_FR9/morph_Sh5Res8_6/morph_10dot_3.png	2	99	0	0
1	28	17	file:/Users/jdstokes/Desktop/Shapes/City9_NS5_FR9/morph_Sh5Res8_6/morph_10dot_3.png	1	99	0	0
1	29	19	file:/Users/jdstokes/Desktop/Shapes/City9_NS5_FR9/morph_Sh5Res8_6/morph_10dot_3.png	1	99	0	0
1	30	21	file:/Users/jdstokes/Desktop/Shapes/City9_NS5_FR9/morph_Sh5Res8_6/morph_10dot_2.png	2	99	0	0
1	31	23	file:/Users/jdstokes/Desktop/Shapes/City9_NS5_FR9/morph_Sh5Res8_6/morph_shape_3.png	2	99	0	0
1	32	25	file:/Users/jdstokes/Desktop/Shapes/City9_NS5_FR9/morph_Sh5Res8_6/morph_shape_3.png	1	99	0	0
1	33	27	file:/Users/jdstokes/Desktop/Shapes/City9_NS5_FR9/morph_Sh5Res8_6/morph_10dot_2.png	2	99	0	0
1	34	29	file:/Users/jdstokes/Desktop/Shapes/City9_NS5_FR9/morph_Sh5Res8_6/morph_10dot_3.png	2	99	0	0
1	35	31	file:/Users/jdstokes/Desktop/Shapes/City9_NS5_FR9/morph_Sh5Res8_6/morph_shape_1.png	2	99	0	0
1	36	33	file:/Users/jdstokes/Desktop/Shapes/City9_NS5_FR9/morph_Sh5Res8_6/morph_10dot_1.png	1	99	0	0
1	37	35	file:/Users/jdstokes/Desktop/Shapes/City9_NS5_FR9/morph_Sh5Res8_6/morph_shape_1.png	1	99	0	0
1	38	37	file:/Users/jdstokes/Desktop/Shapes/City9_NS5_FR9/morph_Sh5Res8_6/morph_5dot_3.png	2	99	0	0
1	39	39	file:/Users/jdstokes/Desktop/Shapes/City9_NS5_FR9/morph_Sh5Res8_6/morph_10dot_3.png	1	99	0	0
1	40	41	file:/Users/jdstokes/Desktop/Shapes/City9_NS5_FR9/morph_Sh5Res8_6/morph_10dot_3.png	1	99	0	0
1	41	3	file:/Users/jdstokes/Desktop/Shapes/City9_NS5_FR9/morph_Sh5Res8_9/morph_shape_2.png	2	99	0	0
1	42	5	file:/Users/jdstokes/Desktop/Shapes/City9_NS5_FR9/morph_Sh5Res8_9/morph_shape_1.png	2	99	0	0
1	43	7	file:/Users/jdstokes/Desktop/Shapes/City9_NS5_FR9/morph_Sh5Res8_9/morph_shape_1.png	1	99	0	0
1	44	9	file:/Users/jdstokes/Desktop/Shapes/City9_NS5_FR9/morph_Sh5Res8_9/morph_shape_1.png	1	99	0	0
1	45	11	file:/Users/jdstokes/Desktop/Shapes/City9_NS5_FR9/morph_Sh5Res8_9/morph_shape_1.png	1	99	0	0
1	46	13	file:/Users/jdstokes/Desktop/Shapes/City9_NS5_FR9/morph_Sh5Res8_9/morph_shape_4.png	2	99	0	0
1	47	15	file:/Users/jdstokes/Desktop/Shapes/City9_NS5_FR9/morph_Sh5Res8_9/morph_shape_1.png	2	99	0	0
1	48	17	file:/Users/jdstokes/Desktop/Shapes/City9_NS5_FR9/morph_Sh5Res8_9/morph_shape_1.png	1	99	0	0
1	49	19	file:/Users/jdstokes/Desktop/Shapes/City9_NS5_FR9/morph_Sh5Res8_9/morph_shape_4.png	2	99	0	0
1	50	21	file:/Users/jdstokes/Desktop/Shapes/City9_NS5_FR9/morph_Sh5Res8_9/morph_shape_1.png	2	99	0	0
1	51	23	file:/Users/jdstokes/Desktop/Shapes/City9_NS5_FR9/morph_Sh5Res8_9/morph_shape_1.png	1	99	0	0
1	52	25	file:/Users/jdstokes/Desktop/Shapes/City9_NS5_FR9/morph_Sh5Res8_9/morph_shape_4.png	2	99	0	0
1	53	27	file:/Users/jdstokes/Desktop/Shapes/City9_NS5_FR9/morph_Sh5Res8_9/morph_shape_2.png	2	99	0	0
1	54	29	file:/Users/jdstokes/Desktop/Shapes/City9_NS5_FR9/morph_Sh5Res8_9/morph_shape_2.png	1	99	0	0
1	55	31	file:/Users/jdstokes/Desktop/Shapes/City9_NS5_FR9/morph_Sh5Res8_9/morph_shape_2.png	1	99	0	0
1	56	33	file:/Users/jdstokes/Desktop/Shapes/City9_NS5_FR9/morph_Sh5Res8_9/morph_shape_1.png	2	99	0	0
1	57	35	file:/Users/jdstokes/Desktop/Shapes/City9_NS5_FR9/morph_Sh5Res8_9/morph_shape_1.png	1	99	0	0
1	58	37	file:/Users/jdstokes/Desktop/Shapes/City9_NS5_FR9/morph_Sh5Res8_9/morph_shape_3.png	2	99	0	0
1	59	39	file:/Users/jdstokes/Desktop/Shapes/City9_NS5_FR9/morph_Sh5Res8_9/morph_shape_2.png	2	99	0	0
1	60	41	file:/Users/jdstokes/Desktop/Shapes/City9_NS5_FR9/morph_Sh5Res8_9/morph_shape_2.png	2	99	0	0
1	61	3	file:/Users/jdstokes/Desktop/Shapes/City9_NS5_FR9/morph_Sh5Res8_9/morph_5dot_2.png	2	99	0	0
1	62	5	file:/Users/jdstokes/Desktop/Shapes/City9_NS5_FR9/morph_Sh5Res8_9/morph_5dot_2.png	1	99	0	0
1	63	7	file:/Users/jdstokes/Desktop/Shapes/City9_NS5_FR9/morph_Sh5Res8_9/morph_10dot_2.png	1	99	0	0
1	64	9	file:/Users/jdstokes/Desktop/Shapes/City9_NS5_FR9/morph_Sh5Res8_9/morph_shape_2.png	1	99	0	0
1	65	11	file:/Users/jdstokes/Desktop/Shapes/City9_NS5_FR9/morph_Sh5Res8_9/morph_5dot_2.png	1	99	0	0
1	66	13	file:/Users/jdstokes/Desktop/Shapes/City9_NS5_FR9/morph_Sh5Res8_9/morph_5dot_3.png	2	99	0	0
1	67	15	file:/Users/jdstokes/Desktop/Shapes/City9_NS5_FR9/morph_Sh5Res8_9/morph_5dot_2.png	2	99	0	0
1	68	17	file:/Users/jdstokes/Desktop/Shapes/City9_NS5_FR9/morph_Sh5Res8_9/morph_5dot_2.png	1	99	0	0
1	69	19	file:/Users/jdstokes/Desktop/Shapes/City9_NS5_FR9/morph_Sh5Res8_9/morph_5dot_2.png	1	99	0	0
1	70	21	file:/Users/jdstokes/Desktop/Shapes/City9_NS5_FR9/morph_Sh5Res8_9/morph_shape_3.png	2	99	0	0
1	71	23	file:/Users/jdstokes/Desktop/Shapes/City9_NS5_FR9/morph_Sh5Res8_9/morph_5dot_3.png	1	99	0	0
1	72	25	file:/Users/jdstokes/Desktop/Shapes/City9_NS5_FR9/morph_Sh5Res8_9/morph_5dot_3.png	1	99	0	0
1	73	27	file:/Users/jdstokes/Desktop/Shapes/City9_NS5_FR9/morph_Sh5Res8_9/morph_5dot_3.png	1	99	0	0
1	74	29	file:/Users/jdstokes/Desktop/Shapes/City9_NS5_FR9/morph_Sh5Res8_9/morph_5dot_4.png	2	99	0	0
1	75	31	file:/Users/jdstokes/Desktop/Shapes/City9_NS5_FR9/morph_Sh5Res8_9/morph_shape_4.png	1	99	0	0
1	76	33	file:/Users/jdstokes/Desktop/Shapes/City9_NS5_FR9/morph_Sh5Res8_9/morph_10dot_4.png	1	99	0	0
1	77	35	file:/Users/jdstokes/Desktop/Shapes/City9_NS5_FR9/morph_Sh5Res8_9/morph_shape_3.png	2	99	0	0
1	78	37	file:/Users/jdstokes/Desktop/Shapes/City9_NS5_FR9/morph_Sh5Res8_9/morph_5dot_4.png	2	99	0	0
1	79	39	file:/Users/jdstokes/Desktop/Shapes/City9_NS5_FR9/morph_Sh5Res8_9/morph_5dot_4.png	1	99	0	0
1	80	41	file:/Users/jdstokes/Desktop/Shapes/City9_NS5_FR9/morph_Sh5Res8_9/morph_5dot_4.png	1	99	0	0
1	81	3	file:/Users/jdstokes/Desktop/Shapes/City9_NS5_FR9/morph_Sh5Res8_96/morph_shape_1.png	2	99	0	0
1	82	5	file:/Users/jdstokes/Desktop/Shapes/City9_NS5_FR9/morph_Sh5Res8_96/morph_shape_2.png	2	99	0	0
1	83	7	file:/Users/jdstokes/Desktop/Shapes/City9_NS5_FR9/morph_Sh5Res8_96/morph_shape_3.png	2	99	0	0
1	84	9	file:/Users/jdstokes/Desktop/Shapes/City9_NS5_FR9/morph_Sh5Res8_96/morph_shape_3.png	1	99	0	0
1	85	11	file:/Users/jdstokes/Desktop/Shapes/City9_NS5_FR9/morph_Sh5Res8_96/morph_shape_3.png	1	99	0	0
1	86	13	file:/Users/jdstokes/Desktop/Shapes/City9_NS5_FR9/morph_Sh5Res8_96/morph_shape_2.png	2	99	0	0
1	87	15	file:/Users/jdstokes/Desktop/Shapes/City9_NS5_FR9/morph_Sh5Res8_96/morph_shape_2.png	1	99	0	0
1	88	17	file:/Users/jdstokes/Desktop/Shapes/City9_NS5_FR9/morph_Sh5Res8_96/morph_shape_4.png	2	99	0	0
1	89	19	file:/Users/jdstokes/Desktop/Shapes/City9_NS5_FR9/morph_Sh5Res8_96/morph_shape_1.png	2	99	0	0
1	90	21	file:/Users/jdstokes/Desktop/Shapes/City9_NS5_FR9/morph_Sh5Res8_96/morph_shape_2.png	2	99	0	0
1	91	23	file:/Users/jdstokes/Desktop/Shapes/City9_NS5_FR9/morph_Sh5Res8_96/morph_shape_4.png	2	99	0	0
1	92	25	file:/Users/jdstokes/Desktop/Shapes/City9_NS5_FR9/morph_Sh5Res8_96/morph_shape_1.png	2	99	0	0
1	93	27	file:/Users/jdstokes/Desktop/Shapes/City9_NS5_FR9/morph_Sh5Res8_96/morph_shape_1.png	1	99	0	0
1	94	29	file:/Users/jdstokes/Desktop/Shapes/City9_NS5_FR9/morph_Sh5Res8_96/morph_shape_3.png	2	99	0	0
1	95	31	file:/Users/jdstokes/Desktop/Shapes/City9_NS5_FR9/morph_Sh5Res8_96/morph_shape_1.png	2	99	0	0
1	96	33	file:/Users/jdstokes/Desktop/Shapes/City9_NS5_FR9/morph_Sh5Res8_96/morph_shape_1.png	1	99	0	0
1	97	35	file:/Users/jdstokes/Desktop/Shapes/City9_NS5_FR9/morph_Sh5Res8_96/morph_shape_3.png	2	99	0	0
1	98	37	file:/Users/jdstokes/Desktop/Shapes/City9_NS5_FR9/morph_Sh5Res8_96/morph_shape_2.png	2	99	0	0
1	99	39	file:/Users/jdstokes/Desktop/Shapes/City9_NS5_FR9/morph_Sh5Res8_96/morph_shape_2.png	1	99	0	0
1	100	41	file:/Users/jdstokes/Desktop/Shapes/City9_NS5_FR9/morph_Sh5Res8_96/morph_shape_2.png	1	99	0	0
1	101	3	file:/Users/jdstokes/Desktop/Shapes/City9_NS5_FR9/morph_Sh5Res8_96/morph_shape_3.png	1	99	0	0
1	102	5	file:/Users/jdstokes/Desktop/Shapes/City9_NS5_FR9/morph_Sh5Res8_96/morph_5dot_2.png	2	99	0	0
1	103	7	file:/Users/jdstokes/Desktop/Shapes/City9_NS5_FR9/morph_Sh5Res8_96/morph_10dot_2.png	1	99	0	0
1	104	9	file:/Users/jdstokes/Desktop/Shapes/City9_NS5_FR9/morph_Sh5Res8_96/morph_shape_3.png	2	99	0	0
1	105	11	file:/Users/jdstokes/Desktop/Shapes/City9_NS5_FR9/morph_Sh5Res8_96/morph_shape_4.png	2	99	0	0
1	106	13	file:/Users/jdstokes/Desktop/Shapes/City9_NS5_FR9/morph_Sh5Res8_96/morph_10dot_3.png	2	99	0	0
1	107	15	file:/Users/jdstokes/Desktop/Shapes/City9_NS5_FR9/morph_Sh5Res8_96/morph_5dot_2.png	2	99	0	0
1	108	17	file:/Users/jdstokes/Desktop/Shapes/City9_NS5_FR9/morph_Sh5Res8_96/morph_shape_2.png	1	99	0	0
1	109	19	file:/Users/jdstokes/Desktop/Shapes/City9_NS5_FR9/morph_Sh5Res8_96/morph_10dot_2.png	1	99	0	0
1	110	21	file:/Users/jdstokes/Desktop/Shapes/City9_NS5_FR9/morph_Sh5Res8_96/morph_10dot_3.png	2	99	0	0
1	111	23	file:/Users/jdstokes/Desktop/Shapes/City9_NS5_FR9/morph_Sh5Res8_96/morph_10dot_3.png	1	99	0	0
1	112	25	file:/Users/jdstokes/Desktop/Shapes/City9_NS5_FR9/morph_Sh5Res8_96/morph_10dot_2.png	2	99	0	0
1	113	27	file:/Users/jdstokes/Desktop/Shapes/City9_NS5_FR9/morph_Sh5Res8_96/morph_5dot_3.png	2	99	0	0
1	114	29	file:/Users/jdstokes/Desktop/Shapes/City9_NS5_FR9/morph_Sh5Res8_96/morph_shape_2.png	2	99	0	0
1	115	31	file:/Users/jdstokes/Desktop/Shapes/City9_NS5_FR9/morph_Sh5Res8_96/morph_10dot_2.png	1	99	0	0
1	116	33	file:/Users/jdstokes/Desktop/Shapes/City9_NS5_FR9/morph_Sh5Res8_96/morph_10dot_2.png	1	99	0	0
1	117	35	file:/Users/jdstokes/Desktop/Shapes/City9_NS5_FR9/morph_Sh5Res8_96/morph_10dot_2.png	1	99	0	0
1	118	37	file:/Users/jdstokes/Desktop/Shapes/City9_NS5_FR9/morph_Sh5Res8_96/morph_5dot_3.png	2	99	0	0
1	119	39	file:/Users/jdstokes/Desktop/Shapes/City9_NS5_FR9/morph_Sh5Res8_96/morph_10dot_3.png	1	99	0	0
1	120	41	file:/Users/jdstokes/Desktop/Shapes/City9_NS5_FR9/morph_Sh5Res8_96/morph_10dot_3.png	1	99	0	0
